{
  "resourceType": "Bundle",
  "type": "transaction",
  "entry": [
    {
      "fullUrl": "urn:uuid:diagnosticreport-cbc-001",
      "resource": {
        "resourceType": "DiagnosticReport",
        "id": "diagnosticreport-cbc-001",
        "status": "final",
        "category": [
          {
            "coding": [
              {
                "system": "http://terminology.hl7.org/CodeSystem/v2-0074",
                "code": "LAB",
                "display": "Laboratory"
              }
            ]
          }
        ],
        "code": {
          "coding": [
            {
              "system": "http://loinc.org",
              "code": "58410-2",
              "display": "Complete blood count (CBC) panel"
            }
          ]
        },
        "subject": {
          "reference": "Patient/patient-67890",
          "display": "John Smith"
        },
        "effectiveDateTime": "2024-12-07T10:30:00Z",
        "issued": "2024-12-07T14:00:00Z",
        "performer": [
          {
            "reference": "Organization/lab-main",
            "display": "Central Laboratory"
          }
        ],
        "result": [
          {"reference": "urn:uuid:obs-wbc"},
          {"reference": "urn:uuid:obs-rbc"},
          {"reference": "urn:uuid:obs-hemoglobin"},
          {"reference": "urn:uuid:obs-platelets"}
        ]
      },
      "request": {
        "method": "POST",
        "url": "DiagnosticReport"
      }
    },
    {
      "fullUrl": "urn:uuid:obs-wbc",
      "resource": {
        "resourceType": "Observation",
        "status": "final",
        "code": {
          "coding": [
            {
              "system": "http://loinc.org",
              "code": "6690-2",
              "display": "Leukocytes [#/volume] in Blood"
            }
          ]
        },
        "subject": {"reference": "Patient/patient-67890"},
        "effectiveDateTime": "2024-12-07T10:30:00Z",
        "valueQuantity": {
          "value": 7.5,
          "unit": "10*3/uL",
          "system": "http://unitsofmeasure.org",
          "code": "10*3/uL"
        },
        "referenceRange": [
          {
            "low": {"value": 4.5, "unit": "10*3/uL"},
            "high": {"value": 11.0, "unit": "10*3/uL"}
          }
        ]
      },
      "request": {"method": "POST", "url": "Observation"}
    },
    {
      "fullUrl": "urn:uuid:obs-rbc",
      "resource": {
        "resourceType": "Observation",
        "status": "final",
        "code": {
          "coding": [
            {
              "system": "http://loinc.org",
              "code": "789-8",
              "display": "Erythrocytes [#/volume] in Blood"
            }
          ]
        },
        "subject": {"reference": "Patient/patient-67890"},
        "effectiveDateTime": "2024-12-07T10:30:00Z",
        "valueQuantity": {
          "value": 4.8,
          "unit": "10*6/uL",
          "system": "http://unitsofmeasure.org",
          "code": "10*6/uL"
        },
        "referenceRange": [
          {
            "low": {"value": 4.2, "unit": "10*6/uL"},
            "high": {"value": 5.9, "unit": "10*6/uL"}
          }
        ]
      },
      "request": {"method": "POST", "url": "Observation"}
    },
    {
      "fullUrl": "urn:uuid:obs-hemoglobin",
      "resource": {
        "resourceType": "Observation",
        "status": "final",
        "code": {
          "coding": [
            {
              "system": "http://loinc.org",
              "code": "718-7",
              "display": "Hemoglobin [Mass/volume] in Blood"
            }
          ]
        },
        "subject": {"reference": "Patient/patient-67890"},
        "effectiveDateTime": "2024-12-07T10:30:00Z",
        "valueQuantity": {
          "value": 14.2,
          "unit": "g/dL",
          "system": "http://unitsofmeasure.org",
          "code": "g/dL"
        },
        "referenceRange": [
          {
            "low": {"value": 12.0, "unit": "g/dL"},
            "high": {"value": 17.5, "unit": "g/dL"}
          }
        ]
      },
      "request": {"method": "POST", "url": "Observation"}
    },
    {
      "fullUrl": "urn:uuid:obs-platelets",
      "resource": {
        "resourceType": "Observation",
        "status": "final",
        "code": {
          "coding": [
            {
              "system": "http://loinc.org",
              "code": "777-3",
              "display": "Platelets [#/volume] in Blood"
            }
          ]
        },
        "subject": {"reference": "Patient/patient-67890"},
        "effectiveDateTime": "2024-12-07T10:30:00Z",
        "valueQuantity": {
          "value": 250,
          "unit": "10*3/uL",
          "system": "http://unitsofmeasure.org",
          "code": "10*3/uL"
        },
        "referenceRange": [
          {
            "low": {"value": 150, "unit": "10*3/uL"},
            "high": {"value": 400, "unit": "10*3/uL"}
          }
        ]
      },
      "request": {"method": "POST", "url": "Observation"}
    }
  ]
}
